   228
    280.0   0.03168   0.03044
    290.0   0.02625   0.00489
    300.0   0.02684   0.00240
    310.0   0.02876   0.00154
    320.0   0.03213   0.00122
    330.0   0.03623   0.00101
    340.0   0.04114   0.00110
    350.0   0.04790   0.00105
    360.0   0.05719   0.00077
    370.0   0.06994   0.00087
    380.0   0.08494   0.00105
    390.0   0.10176   0.00131
    400.0   0.11814   0.00204
    410.0   0.13281   0.00184
    420.0   0.14882   0.00210
    430.0   0.16509   0.00206
    440.0   0.18188   0.00263
    450.0   0.19574   0.00263
    460.0   0.20842   0.00254
    470.0   0.22013   0.00266
    480.0   0.23310   0.00286
    490.0   0.24706   0.00308
    500.0   0.26224   0.00496
    510.0   0.27337   0.00336
    520.0   0.28595   0.00302
    530.0   0.29571   0.00333
    540.0   0.30392   0.00330
    550.0   0.31063   0.00377
    560.0   0.31646   0.00405
    570.0   0.32049   0.00368
    580.0   0.32406   0.00345
    590.0   0.32671   0.00383
    600.0   0.32953   0.00371
    610.0   0.33269   0.00351
    620.0   0.33439   0.00370
    630.0   0.33728   0.00385
    640.0   0.33949   0.00390
    650.0   0.34164   0.00424
    660.0   0.34341   0.00381
    670.0   0.34549   0.00361
    680.0   0.34728   0.00400
    690.0   0.34928   0.00377
    700.0   0.35138   0.00382
    710.0   0.35426   0.00376
    720.0   0.35614   0.00352
    730.0   0.35939   0.00367
    740.0   0.35977   0.00594
    750.0   0.36477   0.00364
    760.0   0.36758   0.00402
    770.0   0.37134   0.00344
    780.0   0.37335   0.00380
    790.0   0.37501   0.00399
    800.0   0.37608   0.01295
    810.0   0.37799   0.01125
    820.0   0.37751   0.01118
    830.0   0.37737   0.01038
    840.0   0.37737   0.00872
    850.0   0.37660   0.00800
    860.0   0.37667   0.01040
    870.0   0.37620   0.00811
    880.0   0.37619   0.00774
    890.0   0.37579   0.00690
    900.0   0.37615   0.00597
    910.0   0.37636   0.00544
    920.0   0.37737   0.00526
    930.0   0.37780   0.00490
    940.0   0.37852   0.00476
    950.0   0.37860   0.00440
    960.0   0.37892   0.00435
    970.0   0.37901   0.00458
    980.0   0.37949   0.00393
    990.0   0.37954   0.00335
   1000.0   0.37861   0.00405
   1010.0   0.37735   0.00370
   1020.0   0.37632   0.00527
   1030.0   0.37427   0.00416
   1040.0   0.37404   0.00393
   1050.0   0.37355   0.00502
   1060.0   0.37291   0.00398
   1070.0   0.37134   0.00392
   1080.0   0.37259   0.00379
   1090.0   0.37265   0.00379
   1100.0   0.37346   0.00429
   1110.0   0.37565   0.00396
   1120.0   0.37791   0.00408
   1130.0   0.38030   0.00382
   1140.0   0.38426   0.00415
   1150.0   0.38675   0.00366
   1160.0   0.38981   0.00416
   1170.0   0.39242   0.00410
   1180.0   0.39511   0.00387
   1190.0   0.39851   0.00361
   1200.0   0.40125   0.00419
   1210.0   0.40352   0.00432
   1220.0   0.40515   0.00414
   1230.0   0.40659   0.00421
   1240.0   0.40880   0.00396
   1250.0   0.41110   0.00404
   1260.0   0.41276   0.00397
   1270.0   0.41402   0.00403
   1280.0   0.41627   0.00418
   1290.0   0.41688   0.00453
   1300.0   0.41823   0.00457
   1310.0   0.42038   0.00487
   1320.0   0.42418   0.00497
   1330.0   0.42525   0.00537
   1340.0   0.42927   0.00513
   1350.0   0.42989   0.00531
   1360.0   0.43187   0.00485
   1370.0   0.43556   0.00526
   1380.0   0.43720   0.00508
   1390.0   0.44228   0.00602
   1400.0   0.43643   0.00549
   1410.0   0.44634   0.00549
   1420.0   0.44988   0.00484
   1430.0   0.45418   0.00511
   1440.0   0.45792   0.00508
   1450.0   0.46113   0.00490
   1460.0   0.46486   0.00483
   1470.0   0.46882   0.00549
   1480.0   0.47139   0.00541
   1490.0   0.47487   0.00582
   1500.0   0.47781   0.00521
   1510.0   0.48077   0.00551
   1520.0   0.48372   0.00611
   1530.0   0.48703   0.00529
   1540.0   0.49034   0.00533
   1550.0   0.49139   0.00496
   1560.0   0.49343   0.00576
   1570.0   0.49648   0.00617
   1580.0   0.49911   0.00605
   1590.0   0.50182   0.00542
   1600.0   0.50309   0.00528
   1610.0   0.50639   0.00557
   1620.0   0.50759   0.00561
   1630.0   0.50905   0.00564
   1640.0   0.51061   0.00559
   1650.0   0.51308   0.00566
   1660.0   0.51348   0.00570
   1670.0   0.51585   0.00635
   1680.0   0.51703   0.00550
   1690.0   0.51744   0.00536
   1700.0   0.51898   0.00573
   1710.0   0.52042   0.00613
   1720.0   0.52122   0.00569
   1730.0   0.52165   0.00555
   1740.0   0.52178   0.00592
   1750.0   0.52172   0.00552
   1760.0   0.52257   0.00549
   1770.0   0.52162   0.00584
   1780.0   0.52124   0.00566
   1790.0   0.52306   0.00586
   1800.0   0.52376   0.00586
   1810.0   0.52358   0.00611
   1820.0   0.52345   0.00577
   1830.0   0.52365   0.00603
   1840.0   0.52401   0.00654
   1850.0   0.52381   0.00607
   1860.0   0.52370   0.00580
   1870.0   0.52347   0.00786
   1880.0   0.52213   0.00872
   1890.0   0.52090   0.00623
   1900.0   0.52010   0.00733
   1910.0   0.51892   0.00565
   1920.0   0.51835   0.00608
   1930.0   0.51744   0.00584
   1940.0   0.51653   0.00571
   1950.0   0.51695   0.00537
   1960.0   0.51635   0.00616
   1970.0   0.51573   0.00570
   1980.0   0.51513   0.00572
   1990.0   0.51368   0.00625
   2000.0   0.51100   0.00658
   2010.0   0.50939   0.00594
   2020.0   0.50656   0.00675
   2030.0   0.50419   0.00610
   2040.0   0.50397   0.00567
   2050.0   0.50440   0.00550
   2060.0   0.50332   0.00560
   2070.0   0.50382   0.00627
   2080.0   0.50385   0.00607
   2090.0   0.50224   0.00587
   2100.0   0.49882   0.00632
   2110.0   0.49511   0.00500
   2120.0   0.49140   0.00505
   2130.0   0.48900   0.00550
   2140.0   0.48727   0.00471
   2150.0   0.48755   0.00501
   2160.0   0.49026   0.00527
   2170.0   0.49370   0.00535
   2180.0   0.49463   0.00482
   2190.0   0.49809   0.00505
   2200.0   0.49971   0.00623
   2210.0   0.50308   0.00635
   2220.0   0.50379   0.00581
   2230.0   0.50350   0.00575
   2240.0   0.50369   0.00639
   2250.0   0.50144   0.00642
   2260.0   0.49911   0.00603
   2270.0   0.50073   0.00608
   2280.0   0.50410   0.00559
   2290.0   0.50533   0.00589
   2300.0   0.50559   0.00538
   2310.0   0.50606   0.00558
   2320.0   0.50546   0.00554
   2330.0   0.50517   0.00591
   2340.0   0.50236   0.00585
   2350.0   0.50080   0.00600
   2360.0   0.49981   0.00578
   2370.0   0.49777   0.00577
   2380.0   0.49720   0.00597
   2390.0   0.49943   0.00528
   2400.0   0.49914   0.00589
   2410.0   0.49965   0.00580
   2420.0   0.49915   0.00592
   2430.0   0.49882   0.00559
   2440.0   0.49816   0.00646
   2450.0   0.49730   0.00583
   2460.0   0.49623   0.00528
   2470.0   0.49404   0.00488
   2480.0   0.49723   0.00607
   2490.0   0.49590   0.00541
   2500.0   0.49455   0.00516
   2510.0   0.49334   0.00511
   2520.0   0.49319   0.00601
   2530.0   0.49147   0.00675
   2540.0   0.49207   0.00617
   2550.0   0.49158   0.00923



 C1AA01              .ASC                        

 AA-A1S-001                                                              
 NH4-annite                                                              
 Experiment 4.001                                                        
 * User: MAS                                                             
 * Research Type: Astrobiology,                                          
 * NASA PI/CoI or Sponsor: A1S                                           
 * BVC: Visitor                                                          
 * Public Release Date: 10/29/2011                                       
 * Run Mode: All Samples at Each Wavelength                              
 * Stage Type: Automatic - Alternate                                     
 * Spinning: Yes                                                         
 * Azimuth Angle: 0.0                                                    
 * Aperture Size: 3.0                                                    
 * Scrambler: In                                                         
 * Depolarizer: Out                                                      
 * Initial Background at Home: 7.510478e-004                             
 RATIOS ADJUSTED USING NBS HALON CALIBRATION TABLE                       

 Source Ang: 30.00   Detect Ang:  0.00  Volt: 0.777
 Date: 29-OCT-08   Time: 17:00:11
